Folder: CO2CapacityReduction/AIF

Note: README.md
Supplementary information for "Mechanism of CO2 Capacity Reduction of Flexible Metal-Organic Framework Caused by Water Adsorption", S. Watanabe, S. Hiraide, H. Kunimitsu, A. Fujiwara, and M. T. Miyahara, Front. Mater. XX, XXXX (XXXX). DOI: XXXXX

File: Fig1C_alpha.aif
data_data_raw2aifv006
_exptl_operator 'kunimitu'
_exptl_date 2020-11-21T00:00:00
_exptl_instrument 'BEL 00034'
_exptl_adsorptive CO2 (273K)
_exptl_temperature 273.15
_exptl_sample_mass 0.0296
_sample_id 'HK101'
_sample_material_id 'ELM-11'
_units_temperature K
_units_pressure kPa
_units_mass g
_units_loading 'ml(STP) g-1'

loop_
_adsorp_pressure
_adsorp_p0
_adsorp_amount
0.40352 3485.1 0.050532
5.6471 3485.1 0.29076
10.679 3485.1 0.41738
15.682 3485.1 0.52799
17.694 3485.1 0.60416
20.103 3485.1 0.66531
22.107 3485.1 0.73154
24.104 3485.1 0.79132
26.104 3485.1 0.85817
28.102 3485.1 0.9424
30.092 3485.1 1.0328
32.079 3485.1 1.1368
33.975 3485.1 1.5143
35.286 3485.1 6.2297
35.699 3485.1 12.758
36.191 3485.1 17.611
36.532 3485.1 24.931
36.921 3485.1 30.567
37.404 3485.1 38.639
37.94 3485.1 44.218
38.531 3485.1 51.748
39.305 3485.1 56.333
40.163 3485.1 61.597
41.476 3485.1 66.057
42.365 3485.1 68.046
43.492 3485.1 69.742
44.673 3485.1 70.966
45.829 3485.1 71.761
46.9 3485.1 72.37
48.863 3485.1 73.124
54.424 3485.1 74.217
60.513 3485.1 74.97
66.552 3485.1 75.541
72.578 3485.1 76.029
78.584 3485.1 76.463
84.593 3485.1 76.854
90.595 3485.1 77.21
95.612 3485.1 77.506
100.52 3485.1 77.756

loop_
_desorp_pressure
_desorp_p0
_desorp_amount
94.14 3485.1 77.623
88.174 3485.1 77.441
82.211 3485.1 77.218
76.226 3485.1 76.934
70.259 3485.1 76.606
64.282 3485.1 76.205
58.31 3485.1 75.728
52.358 3485.1 75.177
46.006 3485.1 74.44
43.908 3485.1 74.132
41.913 3485.1 73.824
39.929 3485.1 73.488
37.937 3485.1 73.125
35.952 3485.1 72.733
33.959 3485.1 72.303
31.978 3485.1 71.83
30.0 3485.1 71.306
28.034 3485.1 70.673
26.241 3485.1 69.425
25.598 3485.1 67.121
24.936 3485.1 59.83
24.394 3485.1 49.919
23.794 3485.1 43.843
23.21 3485.1 35.42
22.643 3485.1 30.455
21.984 3485.1 23.612
21.045 3485.1 16.372
19.632 3485.1 10.823
18.641 3485.1 8.5947
17.5 3485.1 6.7539
16.331 3485.1 5.4775
14.706 3485.1 4.2331
9.7222 3485.1 2.5363
4.9631 3485.1 2.0137
0.77059 3485.1 1.5337

File: Fig1C_alphaprime.aif
data_data_raw2aifv006
_exptl_operator 'kunimitu'
_exptl_date 2020-11-24T00:00:00
_exptl_instrument 'BEL 00034'
_exptl_adsorptive CO2 (273K)
_exptl_temperature 273.15
_exptl_sample_mass 0.0294
_sample_id 'HK101_ads'
_sample_material_id 'ELM-11'
_units_temperature K
_units_pressure kPa
_units_mass g
_units_loading 'ml(STP) g-1'

loop_
_adsorp_pressure
_adsorp_p0
_adsorp_amount
0.39717 3485.1 0.053521
5.6279 3485.1 0.31797
10.678 3485.1 0.44957
15.676 3485.1 0.56745
17.688 3485.1 0.65325
20.099 3485.1 0.72774
22.101 3485.1 0.78367
24.091 3485.1 0.83448
26.097 3485.1 0.91249
28.081 3485.1 1.0056
30.059 3485.1 1.1738
31.733 3485.1 2.2918
32.405 3485.1 4.3956
33.122 3485.1 10.683
33.704 3485.1 18.991
34.129 3485.1 24.887
34.528 3485.1 33.887
34.931 3485.1 40.385
35.455 3485.1 49.652
35.991 3485.1 55.857
36.885 3485.1 63.279
37.379 3485.1 65.265
38.219 3485.1 67.867
39.524 3485.1 69.648
40.804 3485.1 70.576
41.939 3485.1 71.105
43.902 3485.1 71.782
45.948 3485.1 72.316
47.991 3485.1 72.752
54.455 3485.1 73.767
60.524 3485.1 74.494
66.547 3485.1 75.068
72.575 3485.1 75.578
78.574 3485.1 76.01
84.588 3485.1 76.43
90.579 3485.1 76.833
95.622 3485.1 77.168
100.51 3485.1 77.45

loop_
_desorp_pressure
_desorp_p0
_desorp_amount
94.181 3485.1 77.343
88.19 3485.1 77.167
82.172 3485.1 76.956
76.227 3485.1 76.717
70.278 3485.1 76.388
64.294 3485.1 75.985
58.318 3485.1 75.495
52.361 3485.1 74.931
46.029 3485.1 74.207
43.923 3485.1 73.889
41.913 3485.1 73.583
39.932 3485.1 73.246
37.949 3485.1 72.888
35.958 3485.1 72.505
33.969 3485.1 72.077
31.982 3485.1 71.628
30.01 3485.1 71.098
28.028 3485.1 70.487
26.138 3485.1 69.554
25.254 3485.1 68.361
24.711 3485.1 65.618
24.024 3485.1 57.69
23.405 3485.1 47.623
22.786 3485.1 41.607
22.185 3485.1 33.444
21.601 3485.1 28.712
20.875 3485.1 22.346
19.836 3485.1 16.051
18.48 3485.1 11.315
17.603 3485.1 9.2468
16.514 3485.1 7.4188
14.935 3485.1 5.4111
10.01 3485.1 2.5515
4.3732 3485.1 1.7715
0.96616 3485.1 1.4038

File: Fig1C_delta.aif
data_data_raw2aifv006
_exptl_operator 'kunimitu'
_exptl_date 2021-02-09T00:00:00
_exptl_instrument 'BEL 00034'
_exptl_adsorptive CO2 (273K)
_exptl_temperature 273.15
_exptl_sample_mass 0.0190
_sample_id 'HK107_10'
_sample_material_id 'ELM-11'
_units_temperature K
_units_pressure kPa
_units_mass g
_units_loading 'ml(STP) g-1'

loop_
_adsorp_pressure
_adsorp_p0
_adsorp_amount
0.29611 3485.1 0.28778
5.1746 3485.1 2.3987
10.339 3485.1 3.4932
15.385 3485.1 4.2918
17.462 3485.1 4.6467
19.715 3485.1 4.9735
21.725 3485.1 5.2457
22.74 3485.1 5.3954
23.745 3485.1 5.5484
24.743 3485.1 5.695
25.748 3485.1 5.8491
26.753 3485.1 5.9672
27.756 3485.1 6.0905
28.756 3485.1 6.2047
29.752 3485.1 6.3397
30.755 3485.1 6.4555
31.747 3485.1 6.5844
32.748 3485.1 6.6954
33.756 3485.1 6.811
34.752 3485.1 6.9174
35.749 3485.1 7.0348
36.748 3485.1 7.1464
37.753 3485.1 7.2733
38.751 3485.1 7.3719
39.749 3485.1 7.4957
40.754 3485.1 7.6149
41.747 3485.1 7.728
42.745 3485.1 7.8568
43.746 3485.1 7.9921
44.735 3485.1 8.1374
45.74 3485.1 8.2765
46.74 3485.1 8.4315
47.726 3485.1 8.6111
48.727 3485.1 8.7719
54.373 3485.1 9.4568
60.371 3485.1 10.059
66.399 3485.1 10.486
72.402 3485.1 10.9
78.403 3485.1 11.285
84.413 3485.1 11.574
90.4 3485.1 11.923
95.42 3485.1 12.156
100.31 3485.1 12.465

loop_
_desorp_pressure
_desorp_p0
_desorp_amount
94.28 3485.1 12.681
88.336 3485.1 12.805
82.37 3485.1 12.894
76.398 3485.1 12.902
70.401 3485.1 12.884
64.421 3485.1 12.803
58.438 3485.1 12.672
52.479 3485.1 12.476
46.237 3485.1 12.199
44.226 3485.1 12.051
43.211 3485.1 11.949
42.219 3485.1 11.867
40.219 3485.1 11.719
39.215 3485.1 11.634
38.213 3485.1 11.553
37.225 3485.1 11.455
36.221 3485.1 11.371
35.228 3485.1 11.245
34.224 3485.1 11.158
33.231 3485.1 11.025
32.237 3485.1 10.88
31.243 3485.1 10.724
30.245 3485.1 10.535
29.251 3485.1 10.328
28.261 3485.1 10.102
27.259 3485.1 9.8852
26.265 3485.1 9.637
25.267 3485.1 9.3954
24.271 3485.1 9.155
23.266 3485.1 8.9075
22.272 3485.1 8.6691
21.27 3485.1 8.4296
20.275 3485.1 8.1752
19.284 3485.1 7.9016
18.288 3485.1 7.608
17.289 3485.1 7.3218
16.296 3485.1 7.0085
14.587 3485.1 6.5207
9.6697 3485.1 5.4458
4.9478 3485.1 4.2707
1.6116 3485.1 2.9316
0.81703 3485.1 2.3179

File: Fig1C_epsilon.aif
data_data_raw2aifv006
_exptl_operator 'kunimitu'
_exptl_date 2021-02-07T00:00:00
_exptl_instrument 'BEL 00034'
_exptl_adsorptive CO2 (273K)
_exptl_temperature 273.15
_exptl_sample_mass 0.0194
_sample_id 'ARM5_uwazumi'
_sample_material_id 'ELM-11'
_units_temperature K
_units_pressure kPa
_units_mass g
_units_loading 'ml(STP) g-1'

loop_
_adsorp_pressure
_adsorp_p0
_adsorp_amount
0.33938 3485.1 0.033529
5.4892 3485.1 0.19448
10.491 3485.1 0.32619
15.495 3485.1 0.42328
17.502 3485.1 0.49456
19.776 3485.1 0.5639
21.769 3485.1 0.6527
22.777 3485.1 0.71094
23.776 3485.1 0.76932
24.78 3485.1 0.82861
25.782 3485.1 0.90194
26.777 3485.1 0.95006
27.779 3485.1 1.0237
28.784 3485.1 1.0663
29.772 3485.1 1.1374
30.777 3485.1 1.1802
31.772 3485.1 1.2609
32.759 3485.1 1.3984
33.686 3485.1 1.8324
34.436 3485.1 3.2374
35.309 3485.1 7.585
35.989 3485.1 13.845
36.727 3485.1 21.7
37.257 3485.1 25.396
37.895 3485.1 31.621
38.198 3485.1 33.448
38.98 3485.1 39.323
39.877 3485.1 45.762
40.248 3485.1 47.682
41.212 3485.1 52.688
42.314 3485.1 57.199
43.431 3485.1 61.045
44.188 3485.1 63.304
45.559 3485.1 66.697
46.361 3485.1 68.289
47.343 3485.1 69.981
48.368 3485.1 71.609
53.701 3485.1 75.846
54.421 3485.1 76.205
60.293 3485.1 77.463
66.406 3485.1 78.084
72.434 3485.1 78.502
78.436 3485.1 78.906
84.44 3485.1 79.262
90.441 3485.1 79.6
95.443 3485.1 79.883
100.34 3485.1 80.175

loop_
_desorp_pressure
_desorp_p0
_desorp_amount
94.29 3485.1 80.318
88.319 3485.1 80.384
82.365 3485.1 80.383
76.361 3485.1 80.323
70.391 3485.1 80.181
64.422 3485.1 79.969
58.443 3485.1 79.66
52.492 3485.1 79.252
46.247 3485.1 78.711
44.21 3485.1 78.461
43.197 3485.1 78.336
42.194 3485.1 78.221
40.212 3485.1 77.957
39.203 3485.1 77.779
38.203 3485.1 77.633
37.2 3485.1 77.459
36.208 3485.1 77.278
35.214 3485.1 77.089
34.215 3485.1 76.895
33.22 3485.1 76.679
32.221 3485.1 76.464
31.233 3485.1 76.228
30.227 3485.1 75.995
29.233 3485.1 75.76
28.236 3485.1 75.479
27.244 3485.1 75.176
26.265 3485.1 74.79
25.409 3485.1 73.783
24.717 3485.1 71.319
23.845 3485.1 64.61
23.095 3485.1 56.419
22.256 3485.1 46.917
21.747 3485.1 41.997
20.993 3485.1 34.909
20.099 3485.1 27.118
18.944 3485.1 20.085
17.747 3485.1 14.438
16.487 3485.1 10.609
15.08 3485.1 7.7148
9.9638 3485.1 4.3893
4.8734 3485.1 4.2499
0.94825 3485.1 4.076

File: Fig09A_coreshell_1st.aif
data_data_raw2aifv006
_exptl_operator 'kunimitu'
_exptl_date 2020-10-30T00:00:00
_exptl_instrument 'BEL 00034'
_exptl_adsorptive CO2 (273K)
_exptl_temperature 273.15
_exptl_sample_mass 0.0300
_sample_id 'HK104'
_sample_material_id 'ELM-11'
_units_temperature K
_units_pressure kPa
_units_mass g
_units_loading 'ml(STP) g-1'

loop_
_adsorp_pressure
_adsorp_p0
_adsorp_amount
0.2393 3485.1 0.077856
3.6224 3485.1 1.4708
5.4482 3485.1 2.1182
8.9683 3485.1 3.3695
10.159 3485.1 3.7689
14.071 3485.1 5.1243
15.235 3485.1 5.5414
16.998 3485.1 6.1869
19.244 3485.1 7.0708
21.285 3485.1 8.0002
22.574 3485.1 8.6782
23.68 3485.1 9.2454
24.741 3485.1 9.7119
25.782 3485.1 10.093
26.81 3485.1 10.448
27.831 3485.1 10.768
28.848 3485.1 11.059
29.852 3485.1 11.344
30.814 3485.1 11.625
31.819 3485.1 12.01
32.584 3485.1 12.802
33.148 3485.1 14.546
33.89 3485.1 21.787
34.288 3485.1 25.381
34.591 3485.1 31.341
35.146 3485.1 37.671
35.7 3485.1 43.239
36.359 3485.1 46.739
37.323 3485.1 50.496
38.209 3485.1 52.219
39.369 3485.1 53.577
40.607 3485.1 54.415
41.77 3485.1 54.941
42.844 3485.1 55.326
43.882 3485.1 55.668
44.907 3485.1 55.952
46.751 3485.1 56.452
47.906 3485.1 56.721
54.558 3485.1 58.059
59.984 3485.1 58.94
66.024 3485.1 59.784
72.111 3485.1 60.5
78.191 3485.1 61.152
84.25 3485.1 61.743
90.301 3485.1 62.271
95.376 3485.1 62.713
100.32 3485.1 63.096

loop_
_desorp_pressure
_desorp_p0
_desorp_amount
94.347 3485.1 63.061
88.46 3485.1 62.895
82.518 3485.1 62.632
76.579 3485.1 62.319
70.674 3485.1 61.911
64.797 3485.1 61.349
58.905 3485.1 60.713
52.319 3485.1 59.798
46.759 3485.1 58.871
44.289 3485.1 58.385
43.078 3485.1 58.095
40.409 3485.1 57.515
39.124 3485.1 57.192
38.075 3485.1 56.898
36.292 3485.1 56.426
35.159 3485.1 56.061
34.129 3485.1 55.754
33.132 3485.1 55.42
32.149 3485.1 55.087
31.16 3485.1 54.723
30.181 3485.1 54.348
29.199 3485.1 53.952
28.222 3485.1 53.519
27.241 3485.1 53.032
26.273 3485.1 52.525
25.427 3485.1 51.7
24.579 3485.1 48.518
23.867 3485.1 42.067
23.343 3485.1 36.549
22.836 3485.1 32.595
22.011 3485.1 25.662
20.963 3485.1 18.973
19.62 3485.1 13.516
18.489 3485.1 10.713
17.746 3485.1 9.3479
16.741 3485.1 8.1537
14.689 3485.1 6.6842
11.275 3485.1 5.0117
9.5752 3485.1 4.1706
5.2573 3485.1 2.3638
4.6858 3485.1 2.0805
1.5395 3485.1 0.62567
0.9076 3485.1 0.19581

File: Fig09B_mixture_1st.aif
data_data_raw2aifv006
_exptl_operator 'kunimitu'
_exptl_date 2020-12-15T00:00:00
_exptl_instrument 'BEL 00034'
_exptl_adsorptive CO2 (273K)
_exptl_temperature 273.15
_exptl_sample_mass 0.0307
_sample_id 'HK101_060'
_sample_material_id 'ELM-11'
_units_temperature K
_units_pressure kPa
_units_mass g
_units_loading 'ml(STP) g-1'

loop_
_adsorp_pressure
_adsorp_p0
_adsorp_amount
0.37996 3485.1 0.18764
5.2724 3485.1 2.3294
10.302 3485.1 4.3052
15.285 3485.1 6.2549
17.507 3485.1 7.2336
19.858 3485.1 8.4421
21.737 3485.1 10.037
22.747 3485.1 11.515
23.859 3485.1 12.594
24.953 3485.1 13.388
26.895 3485.1 14.412
28.019 3485.1 14.894
29.92 3485.1 15.607
31.924 3485.1 16.263
33.967 3485.1 16.962
35.27 3485.1 19.242
36.172 3485.1 24.436
36.91 3485.1 30.389
37.815 3485.1 36.791
38.279 3485.1 38.936
39.261 3485.1 43.999
40.592 3485.1 47.917
41.426 3485.1 49.802
42.542 3485.1 51.423
43.635 3485.1 52.573
44.757 3485.1 53.446
45.884 3485.1 54.198
46.985 3485.1 54.704
48.905 3485.1 55.475
54.359 3485.1 56.882
60.446 3485.1 58.034
66.317 3485.1 58.924
72.507 3485.1 59.781
78.533 3485.1 60.523
84.54 3485.1 61.158
90.552 3485.1 61.763
95.588 3485.1 62.202
100.48 3485.1 62.64

loop_
_desorp_pressure
_desorp_p0
_desorp_amount
94.202 3485.1 62.316
88.192 3485.1 61.876
82.251 3485.1 61.415
76.267 3485.1 60.833
70.324 3485.1 60.195
64.355 3485.1 59.479
58.407 3485.1 58.658
52.464 3485.1 57.674
46.113 3485.1 56.45
43.944 3485.1 55.944
41.924 3485.1 55.437
39.952 3485.1 54.92
37.958 3485.1 54.352
35.974 3485.1 53.753
34.0 3485.1 53.088
32.024 3485.1 52.366
30.037 3485.1 51.559
28.086 3485.1 50.62
26.306 3485.1 49.05
25.614 3485.1 46.652
24.681 3485.1 40.411
23.833 3485.1 33.553
22.792 3485.1 26.812
21.602 3485.1 20.776
20.827 3485.1 17.611
19.78 3485.1 14.556
18.549 3485.1 12.252
17.289 3485.1 10.76
16.183 3485.1 9.6625
14.589 3485.1 8.502
9.885 3485.1 5.8989
5.3326 3485.1 3.8876
4.3856 3485.1 3.4354
1.5453 3485.1 2.1354
0.80439 3485.1 1.711

File: Fig09B_mixture_2nd.aif
data_data_raw2aifv006
_exptl_operator 'kunimitu'
_exptl_date 2020-12-17T00:00:00
_exptl_instrument 'BEL 00034'
_exptl_adsorptive CO2 (273K)
_exptl_temperature 273.15
_exptl_sample_mass 0.0258
_sample_id 'HK101_060_CO2'
_sample_material_id 'ELM-11'
_units_temperature K
_units_pressure kPa
_units_mass g
_units_loading 'ml(STP) g-1'

loop_
_adsorp_pressure
_adsorp_p0
_adsorp_amount
0.31911 3485.1 0.24327
5.1748 3485.1 2.7811
10.227 3485.1 4.9853
15.23 3485.1 7.1047
17.445 3485.1 8.1214
19.753 3485.1 9.3577
21.644 3485.1 10.999
22.668 3485.1 12.493
23.78 3485.1 13.528
24.857 3485.1 14.234
25.884 3485.1 14.794
26.911 3485.1 15.268
28.857 3485.1 16.02
29.882 3485.1 16.381
30.881 3485.1 16.713
31.89 3485.1 17.04
32.885 3485.1 17.354
33.876 3485.1 17.668
34.876 3485.1 17.999
35.91 3485.1 18.412
37.657 3485.1 19.399
38.702 3485.1 20.165
39.645 3485.1 21.076
40.569 3485.1 22.167
41.575 3485.1 23.279
42.573 3485.1 24.326
43.64 3485.1 25.205
44.721 3485.1 26.099
45.744 3485.1 26.905
46.769 3485.1 27.656
47.783 3485.1 28.343
48.798 3485.1 29.001
53.885 3485.1 31.737
54.588 3485.1 31.981
60.099 3485.1 33.971
66.147 3485.1 35.702
72.245 3485.1 37.136
78.336 3485.1 38.226
84.353 3485.1 39.251
90.382 3485.1 40.181
95.44 3485.1 40.91
100.37 3485.1 41.58

loop_
_desorp_pressure
_desorp_p0
_desorp_amount
94.208 3485.1 41.306
88.246 3485.1 40.959
82.305 3485.1 40.523
76.317 3485.1 39.98
70.397 3485.1 39.377
64.418 3485.1 38.68
58.45 3485.1 37.875
52.512 3485.1 36.928
46.225 3485.1 35.731
44.063 3485.1 35.227
42.054 3485.1 34.748
40.064 3485.1 34.233
38.086 3485.1 33.692
36.106 3485.1 33.082
35.053 3485.1 32.728
33.119 3485.1 32.074
32.074 3485.1 31.659
30.164 3485.1 30.898
29.098 3485.1 30.377
27.24 3485.1 29.352
26.123 3485.1 28.73
25.19 3485.1 27.954
24.256 3485.1 26.991
23.429 3485.1 25.503
22.64 3485.1 23.331
21.73 3485.1 20.766
20.791 3485.1 17.885
19.73 3485.1 15.246
18.562 3485.1 13.207
17.383 3485.1 11.753
16.291 3485.1 10.656
14.645 3485.1 9.4608
9.9286 3485.1 6.7232
5.2184 3485.1 4.4052
4.4379 3485.1 4.0209
1.5414 3485.1 2.4559
0.80921 3485.1 1.9464

File: FigS01.aif
data_data_raw2aifv006
_exptl_operator 'kunimitsu'
_exptl_date 2020-11-30T00:00:00
_exptl_instrument 'BEL 00138'
_exptl_adsorptive H2O
_exptl_temperature 303.15
_exptl_sample_mass 0.02766
_sample_id 'HK101'
_sample_material_id 'ELM-11'
_units_temperature K
_units_pressure kPa
_units_mass g
_units_loading 'ml(STP) g-1'

loop_
_adsorp_pressure
_adsorp_p0
_adsorp_amount
0.0039796 4.241 0.012436
0.0043424 4.241 0.016693
0.016324 4.241 0.1691
0.0189 4.241 0.35789
0.021606 4.241 0.59545
0.025889 4.241 1.2995
0.021253 4.241 2.6909
0.019185 4.241 5.8297
0.016917 4.241 13.827
0.018433 4.241 28.088
0.045962 4.241 42.899
0.073044 4.241 57.257
0.21398 4.241 67.356
0.45192 4.241 73.684
0.6593 4.241 77.382
0.83173 4.241 79.034
1.0898 4.241 80.377
1.3885 4.241 80.994
1.5805 4.241 81.639
1.7991 4.241 82.361
2.0219 4.241 83.119
2.4808 4.241 84.552
2.9001 4.241 86.219
3.3123 4.241 88.112
3.6281 4.241 90.292
3.809 4.241 92.303
3.9017 4.241 94.075
4.0908 4.241 101.94
4.1363 4.241 110.21
4.1737 4.241 119.06

File: FigS2_beta.aif
data_data_raw2aifv006
_exptl_operator 'kunimitu'
_exptl_date 2020-12-18T00:00:00
_exptl_instrument 'BEL 00034'
_exptl_adsorptive CO2 (273K)
_exptl_temperature 273.15
_exptl_sample_mass 0.0252
_sample_id 'HK101_H2O'
_sample_material_id 'ELM-11'
_units_temperature K
_units_pressure kPa
_units_mass g
_units_loading 'ml(STP) g-1'

loop_
_adsorp_pressure
_adsorp_p0
_adsorp_amount
0.21304 3485.1 0.077732
5.5041 3485.1 0.71902
10.415 3485.1 1.0421
15.51 3485.1 1.283
17.586 3485.1 1.3943
19.922 3485.1 1.5074
21.974 3485.1 1.5915
23.933 3485.1 1.6768
25.929 3485.1 1.7669
27.938 3485.1 1.8497
29.93 3485.1 1.9507
31.923 3485.1 2.0665
33.878 3485.1 2.3377
34.73 3485.1 3.0158
35.352 3485.1 4.8968
36.197 3485.1 9.7323
36.967 3485.1 15.637
37.877 3485.1 22.154
38.23 3485.1 24.354
39.307 3485.1 29.329
40.486 3485.1 33.473
41.311 3485.1 35.517
42.269 3485.1 37.692
43.321 3485.1 39.728
44.375 3485.1 41.521
45.502 3485.1 42.947
46.542 3485.1 44.236
47.575 3485.1 45.395
48.671 3485.1 46.283
53.553 3485.1 50.198
54.507 3485.1 50.526
59.801 3485.1 52.946
60.545 3485.1 53.18
66.159 3485.1 54.75
72.196 3485.1 56.142
78.259 3485.1 57.293
84.372 3485.1 58.086
90.378 3485.1 58.821
95.427 3485.1 59.392
100.35 3485.1 59.877

loop_
_desorp_pressure
_desorp_p0
_desorp_amount
94.21 3485.1 59.991
88.247 3485.1 60.023
82.306 3485.1 59.971
76.317 3485.1 59.846
70.333 3485.1 59.614
64.369 3485.1 59.335
58.393 3485.1 58.918
52.459 3485.1 58.404
46.202 3485.1 57.66
44.091 3485.1 57.305
42.097 3485.1 56.992
40.111 3485.1 56.607
39.079 3485.1 56.383
37.133 3485.1 55.956
36.089 3485.1 55.698
34.151 3485.1 55.191
33.111 3485.1 54.856
32.113 3485.1 54.531
31.127 3485.1 54.148
30.126 3485.1 53.775
29.145 3485.1 53.34
28.159 3485.1 52.851
27.23 3485.1 52.168
26.341 3485.1 51.152
25.6 3485.1 49.294
24.88 3485.1 43.425
24.26 3485.1 35.667
23.739 3485.1 30.873
23.019 3485.1 24.503
22.033 3485.1 18.006
20.818 3485.1 12.57
19.281 3485.1 9.5511
18.457 3485.1 8.3138
17.429 3485.1 7.138
16.303 3485.1 6.3826
14.736 3485.1 5.3403
10.048 3485.1 3.7576
4.6857 3485.1 2.8524
0.99175 3485.1 2.0884

File: FigS2_gamma.aif
data_data_raw2aifv006
_exptl_operator 'kunimitu'
_exptl_date 2020-11-28T00:00:00
_exptl_instrument 'BEL 00034'
_exptl_adsorptive CO2 (273K)
_exptl_temperature 273.15
_exptl_sample_mass 0.0241
_sample_id 'HK101_2ads'
_sample_material_id 'ELM-11'
_units_temperature K
_units_pressure kPa
_units_mass g
_units_loading 'ml(STP) g-1'

loop_
_adsorp_pressure
_adsorp_p0
_adsorp_amount
0.18831 3485.1 0.10671
5.3537 3485.1 1.3037
10.109 3485.1 1.8578
15.358 3485.1 2.3212
17.536 3485.1 2.5009
19.885 3485.1 2.6837
21.916 3485.1 2.8416
23.918 3485.1 2.9628
25.926 3485.1 3.0887
27.925 3485.1 3.2024
29.965 3485.1 3.3265
31.967 3485.1 3.4775
33.858 3485.1 3.8503
34.781 3485.1 4.3768
35.708 3485.1 5.1289
36.578 3485.1 6.2701
37.502 3485.1 7.6432
38.398 3485.1 9.2972
39.401 3485.1 10.946
40.417 3485.1 12.497
41.529 3485.1 13.772
42.563 3485.1 14.943
43.602 3485.1 15.954
44.684 3485.1 16.755
45.689 3485.1 17.539
46.696 3485.1 18.267
47.711 3485.1 18.98
48.723 3485.1 19.614
53.834 3485.1 22.377
54.543 3485.1 22.603
60.025 3485.1 24.506
66.174 3485.1 25.867
72.241 3485.1 26.952
78.273 3485.1 27.841
84.301 3485.1 28.594
90.434 3485.1 29.017
95.124 3485.1 29.378
100.36 3485.1 29.718

loop_
_desorp_pressure
_desorp_p0
_desorp_amount
94.209 3485.1 30.003
88.218 3485.1 30.147
82.241 3485.1 30.227
76.268 3485.1 30.245
70.315 3485.1 30.198
64.328 3485.1 30.066
58.366 3485.1 29.862
52.415 3485.1 29.565
46.12 3485.1 29.105
44.069 3485.1 28.871
42.061 3485.1 28.62
40.068 3485.1 28.366
38.087 3485.1 28.087
36.097 3485.1 27.774
34.124 3485.1 27.405
33.085 3485.1 27.169
31.134 3485.1 26.742
30.105 3485.1 26.456
29.114 3485.1 26.16
28.12 3485.1 25.856
27.129 3485.1 25.499
26.193 3485.1 25.0
25.203 3485.1 24.471
24.299 3485.1 23.673
23.551 3485.1 22.153
22.797 3485.1 19.922
21.614 3485.1 15.567
20.484 3485.1 11.974
19.638 3485.1 10.292
18.668 3485.1 8.5048
17.501 3485.1 7.249
16.331 3485.1 6.4719
14.724 3485.1 5.6142
10.152 3485.1 4.2402
9.4715 3485.1 4.1218
4.6833 3485.1 3.2746
1.0395 3485.1 2.2803

File: FigS2_zeta.aif
data_data_raw2aifv006
_exptl_operator 'sakanaka'
_exptl_date 2021-08-16T00:00:00
_exptl_instrument 'BEL 00034'
_exptl_adsorptive CO2 (273K)
_exptl_temperature 273.15
_exptl_sample_mass 0.1303
_sample_id 'rsELM-11_high'
_sample_material_id 'ELM-11'
_units_temperature K
_units_pressure kPa
_units_mass g
_units_loading 'ml(STP) g-1'

loop_
_adsorp_pressure
_adsorp_p0
_adsorp_amount
1.0186 3485.1 0.04342
7.6543 3485.1 0.17228
12.733 3485.1 0.24401
17.733 3485.1 0.3144
23.503 3485.1 0.41207
28.399 3485.1 0.58418
30.225 3485.1 3.1675
30.678 3485.1 10.689
31.132 3485.1 17.499
31.475 3485.1 25.017
31.837 3485.1 31.806
32.333 3485.1 38.117
32.714 3485.1 45.044
33.346 3485.1 51.295
33.988 3485.1 57.922
34.99 3485.1 64.565
36.837 3485.1 70.635
38.319 3485.1 73.103
40.858 3485.1 75.266
44.296 3485.1 76.377
48.727 3485.1 77.16
55.761 3485.1 78.085
62.057 3485.1 78.759
68.183 3485.1 79.329
74.067 3485.1 79.826
80.214 3485.1 80.325
86.325 3485.1 80.754
92.359 3485.1 81.165
97.427 3485.1 81.49
102.32 3485.1 81.796

loop_
_desorp_pressure
_desorp_p0
_desorp_amount
92.596 3485.1 81.29
86.421 3485.1 80.943
80.478 3485.1 80.575
74.516 3485.1 80.168
68.573 3485.1 79.726
62.639 3485.1 79.229
56.723 3485.1 78.667
50.829 3485.1 78.036
43.406 3485.1 77.083
39.08 3485.1 76.408
34.356 3485.1 75.525
30.561 3485.1 74.498
28.405 3485.1 71.931
27.626 3485.1 68.312
26.759 3485.1 60.73
26.204 3485.1 52.558
25.558 3485.1 45.286
25.152 3485.1 37.2
24.565 3485.1 29.925
24.046 3485.1 22.039
23.3 3485.1 13.79
22.051 3485.1 7.317
18.729 3485.1 1.7529
14.233 3485.1 1.0329
7.5875 3485.1 0.73133
3.9556 3485.1 0.61531
0.77504 3485.1 0.46533

File: FigS5A_coreshell_2nd.aif
data_data_raw2aifv006
_exptl_operator 'kunimitu'
_exptl_date 2020-11-28T00:00:00
_exptl_instrument 'BEL 00034'
_exptl_adsorptive CO2 (273K)
_exptl_temperature 273.15
_exptl_sample_mass 0.0284
_sample_id 'HK104_2ads'
_sample_material_id 'ELM-11'
_units_temperature K
_units_pressure kPa
_units_mass g
_units_loading 'ml(STP) g-1'

loop_
_adsorp_pressure
_adsorp_p0
_adsorp_amount
0.35729 3485.1 0.20634
5.2488 3485.1 2.3456
10.314 3485.1 4.2625
15.313 3485.1 6.1462
17.503 3485.1 7.0761
19.843 3485.1 8.1565
21.839 3485.1 9.2603
22.946 3485.1 9.9782
24.882 3485.1 10.917
25.994 3485.1 11.376
27.943 3485.1 12.033
29.937 3485.1 12.681
31.676 3485.1 14.092
32.48 3485.1 15.831
33.261 3485.1 18.412
34.506 3485.1 22.963
35.246 3485.1 25.285
36.235 3485.1 27.892
37.298 3485.1 30.027
38.445 3485.1 31.709
39.589 3485.1 33.175
40.666 3485.1 34.398
41.726 3485.1 35.432
42.796 3485.1 36.276
43.801 3485.1 37.109
44.818 3485.1 37.884
45.852 3485.1 38.59
46.863 3485.1 39.232
47.886 3485.1 39.823
48.851 3485.1 40.258
54.013 3485.1 42.612
60.144 3485.1 44.515
66.237 3485.1 45.984
72.382 3485.1 47.098
78.392 3485.1 48.06
84.423 3485.1 48.939
90.452 3485.1 49.722
95.493 3485.1 50.342
100.41 3485.1 50.899

loop_
_desorp_pressure
_desorp_p0
_desorp_amount
94.167 3485.1 50.665
88.236 3485.1 50.357
82.259 3485.1 49.952
76.286 3485.1 49.455
70.324 3485.1 48.871
64.328 3485.1 48.238
58.402 3485.1 47.49
52.451 3485.1 46.625
46.129 3485.1 45.518
43.968 3485.1 45.043
41.976 3485.1 44.593
39.988 3485.1 44.103
37.994 3485.1 43.582
36.011 3485.1 43.034
34.025 3485.1 42.424
32.051 3485.1 41.772
30.071 3485.1 41.035
28.096 3485.1 40.194
26.178 3485.1 39.137
25.09 3485.1 38.433
23.414 3485.1 36.688
22.679 3485.1 34.222
21.641 3485.1 28.581
20.604 3485.1 23.132
19.522 3485.1 18.175
18.75 3485.1 15.527
17.757 3485.1 12.79
16.526 3485.1 10.75
14.768 3485.1 9.0532
9.9492 3485.1 6.2457
5.2409 3485.1 4.1144
4.3996 3485.1 3.7016
1.5014 3485.1 2.3147
0.78128 3485.1 1.8587